2Theta	Intensity
5.214	154
5.235	151
5.257	160
5.278	156
5.299	166
5.321	184
5.342	177
5.364	171
5.385	182
5.406	182
5.428	217
5.449	220
5.471	190
5.492	198
5.513	206
5.535	172
5.556	192
5.578	227
5.599	207
5.62	178
5.642	179
5.663	200
5.684	230
5.706	197
5.727	190
5.749	226
5.77	210
5.791	198
5.813	223
5.834	219
5.856	220
5.877	239
5.898	229
5.92	231
5.941	217
5.963	242
5.984	229
6.005	233
6.027	247
6.048	243
6.069	227
6.091	215
6.112	204
6.134	213
6.155	219
6.176	206
6.198	242
6.219	226
6.241	249
6.262	227
6.283	241
6.305	230
6.326	242
6.348	238
6.369	227
6.39	239
6.412	245
6.433	257
6.454	217
6.476	258
6.497	239
6.519	249
6.54	223
6.561	243
6.583	240
6.604	254
6.626	229
6.647	209
6.668	222
6.69	231
6.711	242
6.733	227
6.754	236
6.775	231
6.797	240
6.818	217
6.839	231
6.861	278
6.882	243
6.904	243
6.925	240
6.946	271
6.968	296
6.989	259
7.011	253
7.032	251
7.053	240
7.075	262
7.096	252
7.118	277
7.139	260
7.16	281
7.182	244
7.203	253
7.224	221
7.246	283
7.267	274
7.289	268
7.31	232
7.331	258
7.353	247
7.374	247
7.396	244
7.417	233
7.438	248
7.46	237
7.481	250
7.503	253
7.524	248
7.545	227
7.567	229
7.588	259
7.609	227
7.631	227
7.652	212
7.674	211
7.695	215
7.716	201
7.738	250
7.759	239
7.781	223
7.802	243
7.823	235
7.845	212
7.866	187
7.888	209
7.909	222
7.93	241
7.952	238
7.973	222
7.994	203
8.016	206
8.037	212
8.059	199
8.08	236
8.101	224
8.123	217
8.144	193
8.166	211
8.187	208
8.208	208
8.23	208
8.251	195
8.273	185
8.294	200
8.315	211
8.337	174
8.358	188
8.379	208
8.401	190
8.422	180
8.444	191
8.465	193
8.486	186
8.508	181
8.529	202
8.551	207
8.572	186
8.593	189
8.615	210
8.636	199
8.658	201
8.679	208
8.7	173
8.722	195
8.743	190
8.764	184
8.786	168
8.807	192
8.829	164
8.85	179
8.871	181
8.893	196
8.914	198
8.936	176
8.957	194
8.978	198
9	174
9.021	163
9.043	182
9.064	170
9.085	188
9.107	170
9.128	187
9.15	178
9.171	165
9.192	187
9.214	176
9.235	200
9.256	198
9.278	172
9.299	183
9.321	178
9.342	171
9.363	177
9.385	181
9.406	176
9.428	188
9.449	184
9.47	198
9.492	182
9.513	176
9.535	175
9.556	162
9.577	166
9.599	162
9.62	160
9.641	190
9.663	196
9.684	177
9.706	167
9.727	147
9.748	171
9.77	163
9.791	184
9.813	176
9.834	162
9.855	163
9.877	163
9.898	168
9.92	177
9.941	178
9.962	166
9.984	150
10.005	157
10.026	155
10.048	177
10.069	169
10.091	158
10.112	177
10.133	173
10.155	150
10.176	170
10.198	168
10.219	189
10.24	188
10.262	162
10.283	185
10.305	160
10.326	159
10.347	175
10.369	168
10.39	191
10.411	153
10.433	188
10.454	144
10.476	155
10.497	158
10.518	188
10.54	142
10.561	146
10.583	162
10.604	160
10.625	161
10.647	167
10.668	165
10.69	148
10.711	158
10.732	151
10.754	167
10.775	145
10.796	164
10.818	156
10.839	165
10.861	149
10.882	183
10.903	180
10.925	165
10.946	158
10.968	172
10.989	148
11.01	143
11.032	140
11.053	169
11.075	175
11.096	161
11.117	145
11.139	147
11.16	173
11.181	162
11.203	152
11.224	153
11.246	183
11.267	161
11.288	161
11.31	184
11.331	157
11.353	167
11.374	183
11.395	160
11.417	168
11.438	157
11.46	167
11.481	172
11.502	164
11.524	174
11.545	163
11.566	150
11.588	143
11.609	169
11.631	158
11.652	166
11.673	154
11.695	166
11.716	143
11.738	169
11.759	181
11.78	153
11.802	156
11.823	174
11.845	153
11.866	152
11.887	180
11.909	169
11.93	157
11.951	163
11.973	165
11.994	144
12.016	146
12.037	164
12.058	149
12.08	187
12.101	155
12.123	179
12.144	154
12.165	154
12.187	167
12.208	166
12.23	144
12.251	160
12.272	158
12.294	160
12.315	137
12.336	154
12.358	171
12.379	163
12.401	163
12.422	166
12.443	156
12.465	156
12.486	165
12.508	151
12.529	160
12.55	150
12.572	152
12.593	173
12.615	151
12.636	161
12.657	161
12.679	176
12.7	184
12.722	162
12.743	154
12.764	167
12.786	157
12.807	152
12.828	158
12.85	169
12.871	167
12.893	171
12.914	147
12.935	177
12.957	151
12.978	162
13	147
13.021	168
13.042	155
13.064	166
13.085	162
13.107	172
13.128	164
13.149	185
13.171	170
13.192	182
13.213	180
13.235	177
13.256	168
13.278	150
13.299	172
13.32	165
13.342	172
13.363	164
13.385	158
13.406	163
13.427	158
13.449	159
13.47	159
13.492	184
13.513	161
13.534	179
13.556	160
13.577	178
13.598	174
13.62	156
13.641	163
13.663	154
13.684	143
13.705	176
13.727	146
13.748	163
13.77	121
13.791	167
13.812	165
13.834	177
13.855	167
13.877	172
13.898	170
13.919	153
13.941	163
13.962	185
13.983	167
14.005	166
14.026	158
14.048	180
14.069	158
14.09	179
14.112	176
14.133	171
14.155	173
14.176	161
14.197	171
14.219	186
14.24	174
14.262	195
14.283	165
14.304	184
14.326	163
14.347	184
14.368	149
14.39	165
14.411	181
14.433	189
14.454	174
14.475	185
14.497	181
14.518	194
14.54	191
14.561	194
14.582	183
14.604	182
14.625	173
14.647	195
14.668	168
14.689	181
14.711	185
14.732	180
14.753	178
14.775	172
14.796	208
14.818	207
14.839	172
14.86	197
14.882	172
14.903	179
14.925	177
14.946	199
14.967	197
14.989	183
15.01	192
15.032	218
15.053	188
15.074	199
15.096	187
15.117	172
15.138	177
15.16	173
15.181	180
15.203	192
15.224	197
15.245	165
15.267	176
15.288	177
15.31	173
15.331	193
15.352	224
15.374	217
15.395	172
15.417	189
15.438	180
15.459	176
15.481	205
15.502	204
15.523	186
15.545	186
15.566	184
15.588	182
15.609	209
15.63	202
15.652	183
15.673	194
15.695	204
15.716	179
15.737	177
15.759	206
15.78	191
15.802	196
15.823	193
15.844	175
15.866	214
15.887	188
15.908	200
15.93	183
15.951	195
15.973	174
15.994	188
16.015	199
16.037	213
16.058	204
16.08	197
16.101	235
16.122	185
16.144	211
16.165	194
16.187	193
16.208	180
16.229	204
16.251	201
16.272	213
16.293	185
16.315	202
16.336	201
16.358	178
16.379	185
16.4	201
16.422	226
16.443	173
16.465	187
16.486	221
16.507	199
16.529	233
16.55	194
16.572	191
16.593	215
16.614	200
16.636	206
16.657	186
16.679	180
16.7	210
16.721	180
16.743	174
16.764	192
16.785	215
16.807	184
16.828	197
16.85	190
16.871	206
16.892	188
16.914	214
16.935	173
16.957	210
16.978	217
16.999	208
17.021	164
17.042	187
17.064	187
17.085	209
17.106	194
17.128	204
17.149	211
17.17	211
17.192	194
17.213	190
17.235	169
17.256	188
17.277	187
17.299	173
17.32	211
17.342	178
17.363	166
17.384	208
17.406	183
17.427	181
17.449	206
17.47	187
17.491	176
17.513	190
17.534	188
17.555	183
17.577	178
17.598	178
17.62	194
17.641	193
17.662	208
17.684	194
17.705	198
17.727	169
17.748	200
17.769	194
17.791	180
17.812	187
17.834	188
17.855	179
17.876	180
17.898	206
17.919	177
17.94	201
17.962	177
17.983	214
18.005	168
18.026	193
18.047	197
18.069	215
18.09	206
18.112	220
18.133	186
18.154	198
18.176	186
18.197	194
18.219	203
18.24	170
18.261	194
18.283	186
18.304	184
18.325	183
18.347	187
18.368	206
18.39	194
18.411	184
18.432	194
18.454	178
18.475	188
18.497	175
18.518	165
18.539	185
18.561	171
18.582	182
18.604	191
18.625	191
18.646	200
18.668	175
18.689	183
18.71	202
18.732	203
18.753	189
18.775	208
18.796	163
18.817	180
18.839	182
18.86	189
18.882	221
18.903	200
18.924	192
18.946	206
18.967	183
18.989	206
19.01	187
19.031	183
19.053	195
19.074	194
19.095	181
19.117	178
19.138	201
19.16	166
19.181	220
19.202	194
19.224	179
19.245	181
19.267	174
19.288	174
19.309	188
19.331	183
19.352	177
19.374	170
19.395	173
19.416	191
19.438	189
19.459	154
19.48	183
19.502	188
19.523	178
19.545	185
19.566	184
19.587	198
19.609	193
19.63	170
19.652	195
19.673	196
19.694	162
19.716	170
19.737	181
19.759	191
19.78	164
19.801	178
19.823	199
19.844	184
19.865	199
19.887	199
19.908	173
19.93	184
19.951	189
19.972	186
19.994	187
20.015	176
20.037	183
20.058	187
20.079	219
20.101	183
20.122	173
20.144	178
20.165	178
20.186	190
20.208	179
20.229	191
20.25	174
20.272	168
20.293	175
20.315	173
20.336	185
20.357	178
20.379	189
20.4	203
20.422	177
20.443	173
20.464	189
20.486	186
20.507	186
20.529	191
20.55	176
20.571	166
20.593	178
20.614	177
20.636	200
20.657	178
20.678	176
20.7	196
20.721	192
20.742	199
20.764	182
20.785	170
20.807	163
20.828	174
20.849	168
20.871	179
20.892	162
20.914	179
20.935	178
20.956	203
20.978	150
20.999	180
21.021	196
21.042	214
21.063	187
21.085	168
21.106	184
21.127	188
21.149	174
21.17	197
21.192	190
21.213	151
21.234	183
21.256	184
21.277	200
21.299	198
21.32	173
21.341	179
21.363	148
21.384	187
21.406	152
21.427	196
21.448	160
21.47	155
21.491	171
21.512	180
21.534	182
21.555	193
21.577	197
21.598	189
21.619	180
21.641	178
21.662	190
21.684	175
21.705	165
21.726	175
21.748	191
21.769	184
21.791	179
21.812	168
21.833	190
21.855	165
21.876	197
21.897	172
21.919	193
21.94	188
21.962	186
21.983	179
22.004	159
22.026	169
22.047	201
22.069	182
22.09	181
22.111	203
22.133	168
22.154	176
22.176	186
22.197	161
22.218	196
22.24	178
22.261	187
22.282	191
22.304	175
22.325	169
22.347	177
22.368	185
22.389	189
22.411	182
22.432	182
22.454	184
22.475	148
22.496	179
22.518	197
22.539	172
22.561	185
22.582	185
22.603	173
22.625	191
22.646	183
22.667	181
22.689	172
22.71	194
22.732	176
22.753	163
22.774	173
22.796	210
22.817	166
22.839	175
22.86	164
22.881	170
22.903	174
22.924	190
22.946	170
22.967	184
22.988	184
23.01	181
23.031	195
23.052	178
23.074	175
23.095	198
23.117	198
23.138	174
23.159	177
23.181	181
23.202	175
23.224	199
23.245	182
23.266	192
23.288	184
23.309	179
23.331	171
23.352	182
23.373	172
23.395	184
23.416	177
23.437	160
23.459	182
23.48	174
23.502	173
23.523	191
23.544	211
23.566	201
23.587	200
23.609	194
23.63	207
23.651	173
23.673	198
23.694	195
23.716	185
23.737	196
23.758	174
23.78	206
23.801	197
23.822	162
23.844	176
23.865	191
23.887	197
23.908	215
23.929	201
23.951	169
23.972	204
23.994	230
24.015	201
24.036	182
24.058	183
24.079	205
24.101	198
24.122	179
24.143	195
24.165	197
24.186	211
24.208	182
24.229	162
24.25	203
24.272	208
24.293	183
24.314	209
24.336	205
24.357	191
24.379	206
24.4	208
24.421	210
24.443	205
24.464	198
24.486	211
24.507	197
24.528	205
24.55	181
24.571	194
24.593	184
24.614	230
24.635	206
24.657	230
24.678	182
24.699	186
24.721	226
24.742	225
24.764	200
24.785	216
24.806	209
24.828	214
24.849	215
24.871	228
24.892	206
24.913	243
24.935	220
24.956	233
24.978	211
24.999	236
25.02	225
25.042	225
25.063	226
25.084	230
25.106	202
25.127	245
25.149	222
25.17	233
25.191	241
25.213	231
25.234	230
25.256	251
25.277	252
25.298	247
25.32	249
25.341	256
25.363	271
25.384	241
25.405	281
25.427	260
25.448	247
25.469	244
25.491	281
25.512	241
25.534	244
25.555	258
25.576	271
25.598	242
25.619	238
25.641	249
25.662	251
25.683	245
25.705	259
25.726	237
25.748	241
25.769	260
25.79	227
25.812	224
25.833	230
25.854	222
25.876	275
25.897	229
25.919	254
25.94	222
25.961	271
25.983	221
26.004	227
26.026	219
26.047	235
26.068	225
26.09	205
26.111	237
26.133	240
26.154	225
26.175	211
26.197	210
26.218	218
26.239	213
26.261	223
26.282	213
26.304	202
26.325	196
26.346	215
26.368	234
26.389	225
26.411	206
26.432	198
26.453	201
26.475	208
26.496	189
26.518	178
26.539	204
26.56	206
26.582	193
26.603	216
26.624	220
26.646	189
26.667	174
26.689	221
26.71	224
26.731	184
26.753	179
26.774	181
26.796	187
26.817	204
26.838	220
26.86	192
26.881	196
26.903	197
26.924	182
26.945	208
26.967	195
26.988	187
27.009	212
27.031	217
27.052	200
27.074	180
27.095	193
27.116	177
27.138	200
27.159	184
27.181	203
27.202	201
27.223	194
27.245	201
27.266	195
27.288	179
27.309	181
27.33	182
27.352	203
27.373	190
27.394	188
27.416	195
27.437	194
27.459	201
27.48	178
27.501	207
27.523	192
27.544	161
27.566	174
27.587	194
27.608	185
27.63	194
27.651	184
27.673	176
27.694	215
27.715	199
27.737	195
27.758	202
27.779	181
27.801	199
27.822	216
27.844	185
27.865	185
27.886	186
27.908	183
27.929	180
27.951	193
27.972	178
27.993	210
28.015	160
28.036	184
28.058	214
28.079	190
28.1	177
28.122	185
28.143	205
28.165	207
28.186	183
28.207	186
28.229	200
28.25	198
28.271	195
28.293	186
28.314	176
28.336	188
28.357	197
28.378	189
28.4	177
28.421	166
28.443	197
28.464	171
28.485	197
28.507	216
28.528	186
28.55	201
28.571	202
28.592	195
28.614	211
28.635	172
28.656	184
28.678	189
28.699	190
28.721	178
28.742	205
28.763	191
28.785	207
28.806	184
28.828	190
28.849	192
28.87	188
28.892	197
28.913	182
28.935	171
28.956	214
28.977	174
28.999	167
29.02	169
29.041	195
29.063	193
29.084	180
29.106	172
29.127	161
29.148	188
29.17	236
29.191	187
29.213	192
29.234	189
29.255	201
29.277	195
29.298	182
29.32	197
29.341	167
29.362	203
29.384	206
29.405	177
29.426	200
29.448	176
29.469	180
29.491	205
29.512	178
29.533	202
29.555	181
29.576	201
29.598	204
29.619	176
29.64	179
29.662	182
29.683	202
29.705	187
29.726	182
29.747	175
29.769	175
29.79	210
29.811	178
29.833	180
29.854	197
29.876	184
29.897	175
29.918	181
29.94	175
29.961	192
29.983	204
30.004	168
30.025	174
30.047	182
30.068	186
30.09	194
30.111	177
30.132	195
30.154	189
30.175	198
30.196	178
30.218	196
30.239	204
30.261	166
30.282	193
30.303	183
30.325	173
30.346	175
30.368	213
30.389	167
30.41	181
30.432	189
30.453	199
30.475	203
30.496	183
30.517	196
30.539	221
30.56	180
30.581	170
30.603	178
30.624	193
30.646	183
30.667	201
30.688	143
30.71	182
30.731	192
30.753	143
30.774	186
30.795	202
30.817	157
30.838	159
30.86	187
30.881	190
30.902	167
30.924	179
30.945	181
30.966	204
30.988	179
31.009	190
31.031	179
31.052	203
31.073	183
31.095	177
31.116	203
31.138	183
31.159	181
31.18	176
31.202	231
31.223	188
31.245	186
31.266	179
31.287	191
31.309	187
31.33	179
31.351	188
31.373	191
31.394	186
31.416	172
31.437	190
31.458	178
31.48	202
31.501	177
31.523	183
31.544	196
31.565	185
31.587	168
31.608	171
31.63	175
31.651	179
31.672	182
31.694	164
31.715	186
31.737	207
31.758	181
31.779	177
31.801	178
31.822	180
31.843	194
31.865	166
31.886	172
31.908	200
31.929	179
31.95	187
31.972	183
31.993	157
32.015	194
32.036	186
32.057	178
32.079	189
32.1	171
32.122	190
32.143	179
32.164	157
32.186	183
32.207	182
32.228	186
32.25	187
32.271	185
32.293	194
32.314	201
32.335	169
32.357	184
32.378	189
32.4	172
32.421	170
32.442	185
32.464	204
32.485	177
32.507	174
32.528	195
32.549	164
32.571	185
32.592	201
32.613	166
32.635	165
32.656	169
32.678	169
32.699	181
32.72	190
32.742	166
32.763	177
32.785	183
32.806	175
32.827	172
32.849	164
32.87	189
32.892	184
32.913	173
32.934	175
32.956	185
32.977	192
32.998	182
33.02	186
33.041	197
33.063	178
33.084	160
33.105	191
33.127	179
33.148	160
33.17	181
33.191	177
33.212	181
33.234	175
33.255	192
33.277	164
33.298	193
33.319	203
33.341	172
33.362	186
33.383	171
33.405	185
33.426	160
33.448	186
33.469	176
33.49	188
33.512	173
33.533	193
33.555	170
33.576	185
33.597	179
33.619	165
33.64	177
33.662	169
33.683	169
33.704	178
33.726	190
33.747	173
33.768	165
33.79	164
33.811	192
33.833	162
33.854	154
33.875	156
33.897	160
33.918	184
33.94	171
33.961	165
33.982	164
34.004	188
34.025	176
34.047	175
34.068	172
34.089	184
34.111	179
34.132	155
34.153	197
34.175	182
34.196	185
34.218	196
34.239	164
34.26	196
34.282	181
34.303	176
34.325	177
34.346	186
34.367	185
34.389	176
34.41	183
34.432	159
34.453	180
34.474	188
34.496	158
34.517	164
34.538	160
34.56	146
34.581	176
34.603	176
34.624	185
34.645	179
34.667	150
34.688	171
34.71	173
34.731	186
34.752	152
34.774	160
34.795	185
34.817	179
34.838	166
34.859	190
34.881	176
34.902	156
34.923	173
34.945	173
34.966	159
34.988	152
35.009	144
35.03	174
35.052	183
35.073	174
35.095	199
35.116	157
35.137	168
35.159	189
35.18	162
35.202	162
35.223	157
35.244	171
35.266	176
35.287	167
35.308	163
35.33	180
35.351	173
35.373	154
35.394	144
35.415	176
35.437	196
35.458	183
35.48	175
35.501	169
35.522	180
35.544	157
35.565	156
35.587	163
35.608	168
35.629	182
35.651	168
35.672	162
35.694	182
35.715	195
35.736	193
35.758	173
35.779	156
35.8	151
35.822	169
35.843	179
35.865	180
35.886	158
35.907	171
35.929	169
35.95	203
35.972	147
35.993	180
36.014	196
36.036	180
36.057	164
36.079	169
36.1	157
36.121	176
36.143	189
36.164	196
36.185	189
36.207	177
36.228	158
36.25	176
36.271	169
36.292	176
36.314	181
36.335	190
36.357	172
36.378	156
36.399	191
36.421	165
36.442	158
36.464	178
36.485	169
36.506	180
36.528	163
36.549	168
36.57	153
36.592	174
36.613	160
36.635	171
36.656	167
36.677	174
36.699	169
36.72	170
36.742	177
36.763	165
36.784	184
36.806	174
36.827	187
36.849	188
36.87	187
36.891	192
36.913	178
36.934	179
36.955	186
36.977	188
36.998	166
37.02	176
37.041	190
37.062	204
37.084	183
37.105	184
37.127	228
37.148	180
37.169	203
37.191	201
37.212	207
37.234	215
37.255	215
37.276	235
37.298	221
37.319	231
37.34	232
37.362	215
37.383	234
37.405	250
37.426	256
37.447	244
37.469	229
37.49	217
37.512	226
37.533	252
37.554	207
37.576	225
37.597	212
37.619	215
37.64	227
37.661	208
37.683	223
37.704	229
37.725	196
37.747	200
37.768	185
37.79	193
37.811	180
37.832	189
37.854	202
37.875	173
37.897	205
37.918	180
37.939	194
37.961	172
37.982	155
38.004	180
38.025	164
38.046	197
38.068	170
38.089	176
38.11	189
38.132	174
38.153	183
38.175	160
38.196	171
38.217	202
38.239	191
38.26	193
38.282	164
38.303	177
38.324	155
38.346	160
38.367	180
38.389	161
38.41	182
38.431	192
38.453	159
38.474	171
38.495	163
38.517	167
38.538	186
38.56	171
38.581	133
38.602	161
38.624	151
38.645	168
38.667	154
38.688	161
38.709	153
38.731	168
38.752	152
38.774	166
38.795	162
38.816	137
38.838	171
38.859	152
38.88	155
38.902	171
38.923	167
38.945	172
38.966	142
38.987	164
39.009	190
39.03	152
39.052	170
39.073	154
39.094	180
39.116	155
39.137	147
39.159	161
39.18	184
39.201	160
39.223	165
39.244	173
39.265	158
39.287	142
39.308	151
39.33	158
39.351	159
39.372	192
39.394	181
39.415	163
39.437	174
39.458	175
39.479	174
39.501	141
39.522	170
39.544	149
39.565	157
39.586	155
39.608	169
39.629	181
39.651	152
39.672	162
39.693	155
39.715	145
39.736	166
39.757	160
39.779	156
39.8	164
39.822	165
39.843	168
39.864	155
39.886	164
39.907	161
39.929	129
39.95	163
39.971	142
39.993	154
40.014	161
40.036	153
40.057	155
40.078	120
40.1	155
40.121	151
40.142	162
40.164	163
40.185	156
40.207	148
40.228	134
40.249	167
40.271	167
40.292	160
40.314	132
40.335	152
40.356	145
40.378	139
40.399	180
40.421	155
40.442	150
40.463	127
40.485	160
40.506	131
40.527	140
40.549	156
40.57	162
40.592	155
40.613	140
40.634	157
40.656	136
40.677	163
40.699	163
40.72	165
40.741	130
40.763	163
40.784	177
40.806	152
40.827	141
40.848	154
40.87	156
40.891	150
40.912	167
40.934	184
40.955	159
40.977	140
40.998	155
41.019	167
41.041	135
41.062	178
41.084	143
41.105	142
41.126	149
41.148	154
41.169	150
41.191	135
41.212	142
41.233	149
41.255	139
41.276	158
41.297	163
41.319	160
41.34	141
41.362	191
41.383	131
41.404	174
41.426	166
41.447	144
41.469	159
41.49	140
41.511	156
41.533	143
41.554	161
41.576	160
41.597	157
41.618	177
41.64	163
41.661	158
41.682	173
41.704	151
41.725	179
41.747	172
41.768	166
41.789	144
41.811	156
41.832	188
41.854	178
41.875	163
41.896	185
41.918	181
41.939	169
41.961	178
41.982	165
42.003	174
42.025	149
42.046	179
42.067	161
42.089	163
42.11	161
42.132	183
42.153	155
42.174	172
42.196	171
42.217	187
42.239	150
42.26	164
42.281	173
42.303	161
42.324	164
42.346	169
42.367	159
42.388	166
42.41	186
42.431	174
42.452	161
42.474	213
42.495	168
42.517	170
42.538	169
42.559	175
42.581	163
42.602	154
42.624	160
42.645	183
42.666	149
42.688	143
42.709	180
42.731	187
42.752	193
42.773	172
42.795	171
42.816	164
42.837	188
42.859	179
42.88	196
42.902	185
42.923	200
42.944	194
42.966	190
42.987	196
43.009	197
43.03	184
43.051	179
43.073	208
43.094	189
43.116	193
43.137	207
43.158	217
43.18	217
43.201	209
43.223	218
43.244	219
43.265	217
43.287	232
43.308	243
43.329	248
43.351	261
43.372	257
43.394	265
43.415	268
43.436	271
43.458	275
43.479	275
43.501	260
43.522	303
43.543	269
43.565	276
43.586	265
43.608	250
43.629	247
43.65	279
43.672	252
43.693	230
43.714	218
43.736	240
43.757	238
43.779	241
43.8	233
43.821	223
43.843	206
43.864	220
43.886	190
43.907	203
43.928	201
43.95	175
43.971	220
43.993	199
44.014	204
44.035	193
44.057	198
44.078	198
44.099	193
44.121	215
44.142	216
44.164	177
44.185	186
44.206	207
44.228	204
44.249	189
44.271	177
44.292	201
44.313	181
44.335	214
44.356	187
44.378	213
44.399	203
44.42	195
44.442	188
44.463	202
44.484	217
44.506	235
44.527	199
44.549	213
44.57	224
44.591	221
44.613	231
44.634	221
44.656	224
44.677	205
44.698	205
44.72	256
44.741	244
44.763	235
44.784	250
44.805	232
44.827	219
44.848	203
44.869	205
44.891	244
44.912	204
44.934	217
44.955	233
44.976	230
44.998	220
45.019	211
45.041	194
45.062	201
45.083	191
45.105	205
45.126	166
45.148	180
45.169	222
45.19	186
45.212	185
45.233	172
45.254	189
45.276	179
45.297	175
45.319	181
45.34	157
45.361	185
45.383	191
45.404	182
45.426	164
45.447	158
45.468	165
45.49	184
45.511	181
45.533	153
45.554	167
45.575	168
45.597	156
45.618	167
45.639	129
45.661	170
45.682	157
45.704	168
45.725	171
45.746	177
45.768	170
45.789	127
45.811	133
45.832	146
45.853	178
45.875	176
45.896	162
45.918	163
45.939	158
45.96	158
45.982	170
46.003	163
46.024	152
46.046	136
46.067	161
46.089	164
46.11	150
46.131	149
46.153	163
46.174	169
46.196	182
46.217	158
46.238	159
46.26	158
46.281	181
46.303	179
46.324	162
46.345	147
46.367	164
46.388	161
46.409	145
46.431	174
46.452	128
46.474	143
46.495	163
46.516	166
46.538	168
46.559	161
46.581	167
46.602	149
46.623	175
46.645	188
46.666	169
46.688	169
46.709	154
46.73	164
46.752	141
46.773	162
46.794	150
46.816	162
46.837	151
46.859	168
46.88	158
46.901	155
46.923	147
46.944	168
46.966	162
46.987	163
47.008	143
47.03	167
47.051	173
47.073	140
47.094	167
47.115	148
47.137	151
47.158	154
47.18	153
47.201	160
47.222	164
47.244	164
47.265	174
47.286	157
47.308	165
47.329	178
47.351	150
47.372	153
47.393	175
47.415	163
47.436	176
47.458	151
47.479	167
47.5	171
47.522	166
47.543	153
47.565	155
47.586	173
47.607	186
47.629	175
47.65	172
47.671	167
47.693	188
47.714	165
47.736	190
47.757	181
47.778	190
47.8	180
47.821	157
47.843	150
47.864	186
47.885	196
47.907	169
47.928	164
47.95	185
47.971	200
47.992	184
48.014	181
48.035	168
48.056	167
48.078	207
48.099	197
48.121	166
48.142	172
48.163	163
48.185	191
48.206	164
48.228	165
48.249	177
48.27	168
48.292	171
48.313	182
48.335	162
48.356	180
48.377	190
48.399	185
48.42	168
48.441	171
48.463	174
48.484	183
48.506	165
48.527	164
48.548	181
48.57	171
48.591	166
48.613	179
48.634	163
48.655	173
48.677	168
48.698	166
48.72	167
48.741	156
48.762	155
48.784	157
48.805	206
48.826	170
48.848	156
48.869	178
48.891	185
48.912	159
48.933	156
48.955	172
48.976	168
48.998	159
49.019	175
49.04	144
49.062	175
49.083	176
49.105	154
49.126	161
49.147	163
49.169	160
49.19	181
49.211	164
49.233	156
49.254	165
49.276	164
49.297	163
49.318	115
49.34	150
49.361	150
49.383	134
49.404	175
49.425	165
49.447	141
49.468	165
49.49	166
49.511	155
49.532	160
49.554	162
49.575	163
49.596	154
49.618	159
49.639	175
49.661	156
49.682	137
49.703	158
49.725	136
49.746	177
49.768	140
49.789	158
49.81	157
49.832	173
49.853	175
49.875	187
49.896	153
49.917	137
49.939	155
49.96	161
49.981	156
50.003	169
50.024	137
50.046	158
50.067	163
50.088	149
50.11	145
50.131	153
50.153	127
50.174	162
50.195	152
50.217	173
50.238	147
50.26	176
50.281	151
50.302	159
50.324	169
50.345	151
50.366	156
50.388	152
50.409	168
50.431	174
50.452	167
50.473	148
50.495	147
50.516	160
50.538	164
50.559	140
50.58	158
50.602	164
50.623	173
50.645	147
50.666	160
50.687	156
50.709	163
50.73	139
50.751	124
50.773	144
50.794	163
50.816	153
50.837	133
50.858	151
50.88	150
50.901	158
50.923	152
50.944	168
50.965	135
50.987	133
51.008	165
51.03	150
51.051	180
51.072	156
51.094	170
51.115	149
51.137	148
51.158	150
51.179	162
51.201	164
51.222	150
51.243	137
51.265	158
51.286	177
51.308	180
51.329	167
51.35	155
51.372	167
51.393	137
51.415	144
51.436	136
51.457	154
51.479	171
51.5	151
51.522	178
51.543	155
51.564	175
51.586	180
51.607	143
51.628	166
51.65	161
51.671	159
51.693	190
51.714	154
51.735	159
51.757	171
51.778	171
51.8	180
51.821	162
51.842	185
51.864	181
51.885	170
51.907	179
51.928	179
51.949	182
51.971	169
51.992	162
52.013	183
52.035	195
52.056	154
52.078	174
52.099	150
52.12	148
52.142	148
52.163	161
52.185	187
52.206	169
52.227	173
52.249	161
52.27	194
52.292	182
52.313	166
52.334	177
52.356	179
52.377	176
52.398	169
52.42	146
52.441	163
52.463	159
52.484	165
52.505	143
52.527	174
52.548	151
52.57	150
52.591	157
52.612	172
52.634	161
52.655	174
52.677	155
52.698	161
52.719	175
52.741	160
52.762	168
52.783	154
52.805	150
52.826	149
52.848	157
52.869	177
52.89	190
52.912	146
52.933	153
52.955	164
52.976	152
52.997	160
53.019	161
53.04	169
53.062	152
53.083	151
53.104	158
53.126	160
53.147	134
53.168	159
53.19	180
53.211	158
53.233	163
53.254	161
53.275	169
53.297	159
53.318	148
53.34	166
53.361	145
53.382	156
53.404	163
53.425	156
53.447	139
53.468	180
53.489	167
53.511	190
53.532	194
53.553	157
53.575	171
53.596	163
53.618	179
53.639	166
53.66	162
53.682	161
53.703	183
53.725	144
53.746	166
53.767	175
53.789	174
53.81	162
53.832	152
53.853	171
53.874	149
53.896	170
53.917	145
53.938	187
53.96	152
53.981	176
54.003	153
54.024	155
54.045	141
54.067	173
54.088	170
54.11	165
54.131	179
54.152	169
54.174	172
54.195	156
54.217	152
54.238	171
54.259	181
54.281	175
54.302	174
54.323	171
54.345	157
54.366	165
54.388	170
54.409	145
54.43	169
54.452	170
54.473	178
54.495	173
54.516	185
54.537	159
54.559	180
54.58	161
54.602	157
54.623	178
54.644	171
54.666	200
54.687	147
54.709	157
54.73	168
54.751	176
54.773	158
54.794	195
54.815	165
54.837	169
54.858	174
54.88	187
54.901	147
54.922	175
54.944	165
54.965	171
54.987	156
55.008	175
55.029	171
55.051	177
55.072	185
55.094	183
55.115	172
55.136	175
55.158	171
55.179	155
55.2	165
55.222	176
55.243	190
55.265	153
55.286	159
55.307	163
55.329	186
55.35	141
55.372	163
55.393	181
55.414	168
55.436	154
55.457	182
55.479	158
55.5	159
55.521	164
55.543	155
55.564	171
55.585	179
55.607	171
55.628	164
55.65	178
55.671	153
55.692	173
55.714	190
55.735	170
55.757	159
55.778	188
55.799	165
55.821	172
55.842	163
55.864	168
55.885	179
55.906	168
55.928	163
55.949	153
55.97	167
55.992	155
56.013	143
56.035	160
56.056	159
56.077	182
56.099	185
56.12	176
56.142	172
56.163	173
56.184	171
56.206	161
56.227	183
56.249	125
56.27	164
56.291	178
56.313	158
56.334	147
56.355	170
56.377	144
56.398	174
56.42	180
56.441	170
56.462	166
56.484	162
56.505	156
56.527	174
56.548	154
56.569	142
56.591	158
56.612	174
56.634	144
56.655	156
56.676	161
56.698	168
56.719	141
56.74	179
56.762	160
56.783	171
56.805	145
56.826	169
56.847	147
56.869	151
56.89	154
56.912	140
56.933	177
56.954	154
56.976	143
56.997	172
57.019	145
57.04	162
57.061	160
57.083	178
57.104	165
57.125	154
57.147	159
57.168	172
57.19	158
57.211	166
57.232	161
57.254	159
57.275	154
57.297	153
57.318	163
57.339	179
57.361	169
57.382	166
57.404	154
57.425	161
57.446	144
57.468	141
57.489	147
57.51	158
57.532	146
57.553	158
57.575	158
57.596	165
57.617	172
57.639	158
57.66	151
57.682	140
57.703	160
57.724	155
57.746	167
57.767	166
57.789	164
57.81	166
57.831	168
57.853	161
57.874	166
57.895	182
57.917	140
57.938	166
57.96	155
57.981	175
58.002	172
58.024	174
58.045	170
58.067	188
58.088	178
58.109	157
58.131	162
58.152	152
58.174	166
58.195	177
58.216	146
58.238	161
58.259	156
58.28	175
58.302	163
58.323	162
58.345	137
58.366	183
58.387	176
58.409	167
58.43	160
58.452	143
58.473	168
58.494	155
58.516	161
58.537	153
58.559	158
58.58	159
58.601	179
58.623	143
58.644	169
58.666	147
58.687	183
58.708	177
58.73	178
58.751	140
58.772	165
58.794	144
58.815	168
58.837	188
58.858	168
58.879	173
58.901	192
58.922	180
58.944	167
58.965	180
58.986	165
59.008	166
59.029	168
59.051	153
59.072	153
59.093	164
59.115	155
59.136	164
59.157	173
59.179	167
59.2	149
59.222	153
59.243	164
59.264	173
59.286	158
59.307	163
59.329	147
59.35	159
59.371	155
59.393	160
59.414	141
59.436	157
59.457	159
59.478	177
59.5	169
59.521	159
59.542	173
59.564	153
59.585	159
59.607	193
59.628	163
59.649	186
59.671	155
59.692	162
59.714	169
59.735	157
59.756	174
59.778	152
59.799	185
59.821	161
59.842	169
59.863	165
59.885	146
59.906	130
59.927	151
59.949	145
59.97	142
59.992	169
60.013	157
60.034	160
60.056	139
60.077	161
60.099	154
60.12	147
60.141	175
60.163	179
60.184	148
60.206	169
60.227	150
60.248	167
60.27	154
60.291	196
60.312	172
60.334	140
60.355	162
60.377	150
60.398	152
60.419	169
60.441	168
60.462	155
60.484	169
60.505	175
60.526	157
60.548	174
60.569	170
60.591	184
60.612	154
60.633	173
60.655	165
60.676	194
60.697	165
60.719	159
60.74	159
60.762	156
60.783	166
60.804	185
60.826	182
60.847	155
60.869	152
60.89	171
60.911	161
60.933	149
60.954	162
60.976	160
60.997	172
61.018	182
61.04	156
61.061	163
61.082	142
61.104	162
61.125	152
61.147	173
61.168	145
61.189	186
61.211	161
61.232	173
61.254	162
61.275	163
61.296	166
61.318	165
61.339	176
61.361	149
61.382	197
61.403	190
61.425	160
61.446	165
61.467	163
61.489	162
61.51	165
61.532	149
61.553	153
61.574	178
61.596	174
61.617	147
61.639	189
61.66	190
61.681	160
61.703	171
61.724	161
61.746	181
61.767	167
61.788	168
61.81	167
61.831	159
61.852	173
61.874	129
61.895	174
61.917	159
61.938	173
61.959	163
61.981	182
62.002	184
62.024	160
62.045	167
62.066	174
62.088	167
62.109	178
62.131	179
62.152	174
62.173	162
62.195	186
62.216	170
62.237	175
62.259	173
62.28	177
62.302	184
62.323	164
62.344	171
62.366	185
62.387	177
62.409	167
62.43	178
62.451	169
62.473	184
62.494	189
62.516	197
62.537	205
62.558	183
62.58	180
62.601	214
62.623	188
62.644	191
62.665	177
62.687	193
62.708	203
62.729	196
62.751	210
62.772	202
62.794	188
62.815	177
62.836	211
62.858	231
62.879	209
62.901	209
62.922	200
62.943	217
62.965	216
62.986	195
63.008	193
63.029	195
63.05	226
63.072	240
63.093	239
63.114	216
63.136	232
63.157	222
63.179	234
63.2	235
63.221	218
63.243	218
63.264	225
63.286	206
63.307	193
63.328	209
63.35	220
63.371	204
63.393	204
63.414	171
63.435	198
63.457	178
63.478	204
63.499	174
63.521	188
63.542	177
63.564	181
63.585	206
63.606	167
63.628	180
63.649	178
63.671	183
63.692	158
63.713	159
63.735	170
63.756	172
63.778	187
63.799	209
63.82	154
63.842	160
63.863	187
63.884	162
63.906	195
63.927	158
63.949	172
63.97	173
63.991	186
64.013	193
64.034	167
64.056	152
64.077	157
64.098	159
64.12	153
64.141	163
64.163	174
64.184	171
64.205	165
64.227	168
64.248	145
64.269	160
64.291	160
64.312	176
64.334	163
64.355	152
64.376	171
64.398	149
64.419	165
64.441	165
64.462	157
64.483	168
64.505	156
64.526	183
64.548	141
64.569	171
64.59	154
64.612	176
64.633	165
64.654	187
64.676	167
64.697	149
64.719	168
64.74	148
64.761	148
64.783	164
64.804	155
64.826	154
64.847	167
64.868	152
64.89	167
64.911	147
64.933	159
64.954	160
64.975	160
64.997	161
65.018	168
65.039	153
65.061	166
65.082	152
65.104	179
65.125	123
65.146	125
65.168	182
65.189	145
65.211	169
65.232	170
65.253	160
65.275	183
65.296	152
65.318	161
65.339	148
65.36	151
65.382	148
65.403	169
65.424	189
65.446	167
65.467	143
65.489	142
65.51	138
65.531	162
65.553	169
65.574	141
65.596	136
65.617	146
65.638	158
65.66	162
65.681	166
65.703	146
65.724	148
65.745	150
65.767	158
65.788	147
65.809	125
65.831	140
65.852	152
65.874	136
65.895	169
65.916	174
65.938	173
65.959	138
65.981	137
66.002	173
66.023	141
66.045	150
66.066	175
66.088	160
66.109	158
66.13	160
66.152	133
66.173	161
66.195	147
66.216	159
66.237	139
66.259	144
66.28	145
66.301	156
66.323	147
66.344	175
66.366	149
66.387	147
66.408	146
66.43	186
66.451	162
66.473	149
66.494	159
66.515	167
66.537	140
66.558	152
66.58	165
66.601	148
66.622	156
66.644	162
66.665	168
66.686	144
66.708	146
66.729	151
66.751	163
66.772	138
66.793	152
66.815	151
66.836	118
66.858	147
66.879	164
66.9	125
66.922	150
66.943	139
66.965	134
66.986	148
67.007	153
67.029	152
67.05	140
67.071	149
67.093	142
67.114	138
67.136	165
67.157	144
67.178	156
67.2	143
67.221	168
67.243	158
67.264	137
67.285	157
67.307	165
67.328	144
67.35	150
67.371	168
67.392	156
67.414	147
67.435	132
67.456	135
67.478	153
67.499	151
67.521	138
67.542	158
67.563	139
67.585	137
67.606	159
67.628	153
67.649	137
67.67	150
67.692	147
67.713	166
67.735	156
67.756	153
67.777	149
67.799	151
67.82	147
67.841	139
67.863	151
67.884	143
67.906	145
67.927	143
67.948	153
67.97	164
67.991	148
68.013	145
68.034	148
68.055	159
68.077	165
68.098	155
68.12	130
68.141	157
68.162	160
68.184	136
68.205	136
68.226	139
68.248	146
68.269	135
68.291	170
68.312	140
68.333	157
68.355	167
68.376	138
68.398	135
68.419	130
68.44	146
68.462	138
68.483	151
68.505	157
68.526	144
68.547	177
68.569	159
68.59	157
68.611	135
68.633	155
68.654	146
68.676	133
68.697	140
68.718	148
68.74	125
68.761	145
68.783	137
68.804	151
68.825	149
68.847	159
68.868	142
68.89	139
68.911	167
68.932	147
68.954	136
68.975	156
68.996	150
69.018	141
69.039	150
69.061	142
69.082	126
69.103	146
69.125	135
69.146	141
69.168	168
69.189	131
69.21	157
69.232	146
69.253	140
69.275	146
69.296	156
69.317	149
69.339	151
69.36	150
69.381	143
69.403	138
69.424	133
69.446	139
69.467	157
69.488	153
69.51	157
69.531	153
69.553	138
69.574	144
69.595	141
69.617	139
69.638	148
69.66	167
69.681	152
69.702	153
69.724	165
69.745	179
69.766	131
69.788	141
69.809	145
69.831	167
69.852	150
69.873	150
69.895	123
69.916	155
69.938	147
69.959	138
69.98	154
70.002	144
70.023	143
70.045	134
70.066	158
70.087	130
70.109	150
70.13	151
70.152	140
70.173	124
70.194	153
70.216	155
70.237	158
70.258	136
70.28	129
70.301	144
70.323	137
70.344	145
70.365	139
70.387	151
70.408	149
70.43	147
70.451	149
70.472	136
70.494	148
70.515	128
70.537	156
70.558	136
70.579	170
70.601	155
70.622	124
70.643	158
70.665	164
70.686	118
70.708	168
70.729	116
70.75	139
70.772	152
70.793	138
70.815	155
70.836	144
70.857	125
70.879	148
70.9	143
70.922	157
70.943	125
70.964	152
70.986	148
71.007	162
71.028	144
71.05	152
71.071	155
71.093	138
71.114	155
71.135	166
71.157	150
71.178	143
71.2	141
71.221	148
71.242	153
71.264	157
71.285	138
71.307	161
71.328	154
71.349	152
71.371	156
71.392	139
71.413	137
71.435	153
71.456	158
71.478	175
71.499	152
71.52	149
71.542	154
71.563	141
71.585	134
71.606	126
71.627	147
71.649	149
71.67	133
71.692	142
71.713	135
71.734	136
71.756	144
71.777	137
71.798	142
71.82	153
71.841	157
71.863	142
71.884	138
71.905	139
71.927	138
71.948	135
71.97	124
71.991	152
72.012	169
72.034	128
72.055	143
72.077	127
72.098	159
72.119	156
72.141	132
72.162	117
72.183	148
72.205	135
72.226	133
72.248	140
72.269	162
72.29	129
72.312	180
72.333	121
72.355	130
72.376	133
72.397	145
72.419	162
72.44	139
72.462	129
72.483	153
72.504	141
72.526	157
72.547	149
72.568	120
72.59	141
72.611	135
72.633	134
72.654	148
72.675	144
72.697	148
72.718	140
72.74	142
72.761	139
72.782	150
72.804	141
72.825	148
72.847	143
72.868	123
72.889	137
72.911	142
72.932	143
72.953	160
72.975	144
72.996	115
73.018	162
73.039	145
73.06	141
73.082	128
73.103	140
73.125	135
73.146	147
73.167	114
73.189	142
73.21	135
73.232	142
73.253	152
73.274	154
73.296	149
73.317	160
73.338	130
73.36	156
73.381	133
73.403	131
73.424	156
73.445	136
73.467	137
73.488	139
73.51	146
73.531	145
73.552	133
73.574	148
73.595	126
73.617	137
73.638	145
73.659	146
73.681	145
73.702	137
73.723	133
73.745	138
73.766	135
73.788	129
73.809	148
73.83	125
73.852	140
73.873	151
73.895	145
73.916	135
73.937	131
73.959	132
73.98	138
74.002	145
74.023	152
74.044	120
74.066	141
74.087	150
74.109	139
74.13	121
74.151	127
74.173	126
74.194	139
74.215	142
74.237	144
74.258	133
74.28	156
74.301	154
74.322	139
74.344	159
74.365	161
74.387	146
74.408	167
74.429	155
74.451	136
74.472	152
74.494	158
74.515	151
74.536	140
74.558	140
74.579	156
74.6	139
74.622	163
74.643	139
74.665	130
74.686	132
74.707	149
74.729	139
74.75	142
74.772	145
74.793	151
74.814	148
74.836	154
74.857	127
74.879	148
74.9	149
74.921	133
74.943	142
74.964	146
74.985	129
75.007	146
75.028	154
75.05	156
75.071	146
75.092	153
75.114	163
75.135	161
75.157	160
75.178	150
75.199	158
75.221	141
75.242	149
75.264	146
75.285	137
75.306	148
75.328	134
75.349	161
75.37	161
75.392	149
75.413	149
75.435	147
75.456	153
75.477	144
75.499	174
75.52	163
75.542	144
75.563	132
75.584	143
75.606	169
75.627	152
75.649	168
75.67	163
75.691	157
75.713	167
75.734	139
75.755	155
75.777	179
75.798	175
75.82	141
75.841	154
75.862	155
75.884	147
75.905	156
75.927	175
75.948	148
75.969	149
75.991	175
76.012	146
76.034	144
76.055	174
76.076	175
76.098	140
76.119	132
76.14	165
76.162	142
76.183	168
76.205	174
76.226	163
76.247	161
76.269	155
76.29	171
76.312	163
76.333	172
76.354	138
76.376	163
76.397	121
76.419	137
76.44	146
76.461	146
76.483	147
76.504	139
76.525	163
76.547	174
76.568	154
76.59	124
76.611	133
76.632	156
76.654	172
76.675	162
76.697	154
76.718	157
76.739	148
76.761	153
76.782	163
76.804	152
76.825	149
76.846	131
76.868	153
76.889	154
76.91	132
76.932	131
76.953	158
76.975	159
76.996	133
77.017	152
77.039	145
77.06	119
77.082	149
77.103	136
77.124	157
77.146	143
77.167	149
77.189	143
77.21	149
77.231	118
77.253	163
77.274	152
77.295	139
77.317	121
77.338	146
77.36	155
77.381	160
77.402	149
77.424	153
77.445	135
77.467	139
77.488	142
77.509	130
77.531	153
77.552	143
77.574	142
77.595	129
77.616	129
77.638	162
77.659	138
77.681	139
77.702	131
77.723	133
77.745	154
77.766	121
77.787	138
77.809	151
77.83	161
77.852	143
77.873	131
77.894	139
77.916	162
77.937	145
77.959	141
77.98	140
78.001	133
78.023	159
78.044	129
78.066	136
78.087	145
78.108	126
78.13	138
78.151	125
78.172	158
78.194	142
78.215	128
78.237	130
78.258	145
78.279	142
78.301	150
78.322	145
78.344	155
78.365	136
78.386	127
78.408	148
78.429	146
78.451	140
78.472	152
78.493	144
78.515	132
78.536	140
78.557	132
78.579	149
78.6	132
78.622	154
78.643	151
78.664	136
78.686	148
78.707	154
78.729	152
78.75	133
78.771	147
78.793	160
78.814	127
78.836	133
78.857	145
78.878	139
78.9	131
78.921	142
78.942	167
78.964	143
78.985	148
79.007	131
79.028	142
79.049	151
79.071	131
79.092	121
79.114	141
79.135	127
79.156	131
79.178	126
79.199	143
79.221	157
79.242	132
79.263	142
79.285	155
79.306	141
79.327	136
79.349	138
79.37	132
79.392	150
79.413	139
79.434	163
79.456	138
79.477	138
79.499	165
79.52	157
79.541	151
79.563	150
79.584	163
79.606	160
79.627	144
79.648	137
79.67	154
79.691	136
79.712	130
79.734	153
79.755	129
79.777	143
79.798	176
79.819	143
79.841	140
79.862	139
79.884	157
79.905	139
79.926	140
79.948	129
79.969	168
79.991	130
80.012	152
80.033	150
80.055	153
80.076	136
80.097	139
80.119	122
80.14	127
80.162	120
80.183	135
80.204	145
80.226	155
80.247	139
80.269	143
80.29	137
80.311	140
80.333	134
80.354	118
80.376	131
80.397	123
80.418	137
80.44	135
80.461	136
80.482	143
80.504	137
80.525	134
80.547	155
80.568	136
80.589	143
80.611	135
80.632	137
80.654	148
80.675	151
80.696	136
80.718	142
80.739	143
80.761	155
80.782	134
80.803	133
80.825	128
80.846	139
80.867	142
80.889	168
80.91	142
80.932	136
80.953	117
80.974	131
80.996	150
81.017	150
81.039	156
81.06	172
81.081	135
81.103	130
81.124	132
81.146	132
81.167	132
81.188	150
81.21	141
81.231	154
81.252	132
81.274	115
81.295	127
81.317	130
81.338	138
81.359	146
81.381	184
81.402	121
81.424	135
81.445	146
81.466	145
81.488	129
81.509	143
81.531	152
81.552	147
81.573	140
81.595	134
81.616	133
81.638	153
81.659	157
81.68	147
81.702	135
81.723	139
81.744	127
81.766	156
81.787	131
81.809	139
81.83	109
81.851	124
81.873	159
81.894	145
81.916	151
81.937	172
81.958	143
81.98	127
82.001	143
82.023	123
82.044	116
82.065	112
82.087	130
82.108	145
82.129	117
82.151	144
82.172	127
82.194	138
82.215	115
82.236	149
82.258	120
82.279	153
82.301	137
82.322	128
82.343	159
82.365	135
82.386	136
82.408	154
82.429	123
82.45	143
82.472	155
82.493	146
82.514	138
82.536	125
82.557	160
82.579	124
82.6	148
82.621	131
82.643	136
82.664	148
82.686	142
82.707	157
82.728	152
82.75	125
82.771	157
82.793	145
82.814	149
82.835	144
82.857	130
82.878	155
82.899	154
82.921	136
82.942	139
82.964	125
82.985	140
83.006	147
83.028	144
83.049	152
83.071	131
83.092	131
83.113	161
83.135	134
83.156	135
83.178	148
83.199	138
83.22	127
83.242	141
83.263	136
83.284	123
83.306	127
83.327	130
83.349	131
83.37	130
83.391	142
83.413	142
83.434	153
83.456	135
83.477	137
83.498	135
83.52	169
83.541	140
83.563	110
83.584	145
83.605	167
83.627	130
83.648	140
83.669	132
83.691	130
83.712	144
83.734	143
83.755	144
83.776	125
83.798	127
83.819	116
83.841	151
83.862	139
83.883	157
83.905	146
83.926	133
83.948	148
83.969	154
83.99	143
84.012	128
84.033	131
84.054	136
84.076	129
84.097	123
84.119	164
84.14	134
84.161	130
84.183	144
84.204	146
84.226	136
84.247	148
84.268	136
84.29	127
84.311	128
84.333	124
84.354	124
84.375	132
84.397	137
84.418	135
84.439	118
84.461	122
84.482	133
84.504	126
84.525	149
84.546	133
84.568	121
84.589	132
84.611	133
84.632	130
84.653	131
84.675	157
84.696	145
84.718	129
84.739	172
84.76	148
84.782	128
84.803	126
84.824	154
84.846	156
84.867	136
84.889	142
84.91	134
84.931	170
84.953	141
84.974	136
84.996	143
85.017	130
85.038	129
85.06	125
85.081	148
85.103	148
85.124	132
85.145	129
85.167	124
85.188	131
85.21	128
85.231	122
85.252	120
85.274	139
85.295	128
85.316	127
85.338	121
85.359	156
85.381	157
85.402	132
85.423	128
85.445	136
85.466	149
85.488	142
85.509	142
85.53	147
85.552	142
85.573	133
85.595	145
85.616	140
85.637	135
85.659	152
85.68	136
85.701	120
85.723	132
85.744	142
85.766	136
85.787	132
85.808	140
85.83	122
85.851	128
85.873	137
85.894	124
85.915	136
85.937	147
85.958	121
85.98	130
86.001	146
86.022	137
86.044	135
86.065	150
86.086	135
86.108	142
86.129	143
86.151	130
86.172	135
86.193	141
86.215	128
86.236	133
86.258	138
86.279	125
86.3	159
86.322	137
86.343	136
86.365	159
86.386	146
86.407	138
86.429	102
86.45	140
86.471	124
86.493	136
86.514	143
86.536	139
86.557	148
86.578	116
86.6	129
86.621	166
86.643	155
86.664	138
86.685	115
86.707	147
86.728	144
86.75	154
86.771	119
86.792	148
86.814	126
86.835	134
86.856	143
86.878	144
86.899	146
86.921	152
86.942	135
86.963	147
86.985	126
87.006	133
87.028	113
87.049	128
87.07	124
87.092	136
87.113	128
87.135	142
87.156	127
87.177	117
87.199	128
87.22	127
87.241	137
87.263	146
87.284	120
87.306	126
87.327	136
87.348	117
87.37	155
87.391	127
87.413	144
87.434	154
87.455	155
87.477	133
87.498	135
87.52	127
87.541	129
87.562	131
87.584	126
87.605	125
87.626	145
87.648	126
87.669	149
87.691	136
87.712	137
87.733	138
87.755	139
87.776	138
87.798	129
87.819	118
87.84	132
87.862	137
87.883	125
87.905	137
87.926	145
87.947	151
87.969	119
87.99	152
88.011	127
88.033	123
88.054	121
88.076	150
88.097	154
88.118	134
88.14	122
88.161	142
88.183	155
88.204	142
88.225	154
88.247	135
88.268	135
88.29	144
88.311	133
88.332	118
88.354	151
88.375	122
88.396	118
88.418	112
88.439	139
88.461	142
88.482	130
88.503	135
88.525	133
88.546	132
88.568	143
88.589	130
88.61	142
88.632	158
88.653	139
88.675	156
88.696	139
88.717	123
88.739	129
88.76	123
88.781	131
88.803	144
88.824	124
88.846	145
88.867	133
88.888	131
88.91	133
88.931	140
88.953	123
88.974	151
88.995	124
89.017	121
89.038	127
89.06	128
89.081	142
89.102	130
89.124	125
89.145	126
89.167	136
89.188	129
89.209	126
89.231	135
89.252	131
89.273	134
89.295	143
89.316	134
89.338	126
89.359	143
89.38	134
89.402	133
89.423	135
89.445	147
89.466	137
89.487	134
89.509	126
89.53	152
89.552	141
89.573	143
89.594	138
89.616	131
89.637	120
89.658	140
89.68	129
89.701	153
89.723	157
89.744	144
89.765	137
89.787	137
89.808	108
89.83	159
89.851	130
89.872	132
89.894	130
89.915	150
89.937	134
89.958	140
89.979	127
90.001	144
